CTI1   

DESCRIPTOR "Argyll Calibration Target chart information 1"
ORIGINATOR "Argyll targen"
CREATED "Wed Nov  9 20:25:14 2022"
SINGLE_DIM_STEPS "4"
COMP_GREY_STEPS "52"
MULTI_DIM_STEPS "4"
COLOR_REP "RGB"
TARGET_INSTRUMENT "X-Rite i1 DisplayPro, ColorMunki Display"
DISPLAY_TYPE_REFRESH "YES"
DISPLAY_TYPE_BASE_ID "2"
INSTRUMENT_TYPE_SPECTRAL "NO"
NORMALIZED_TO_Y_100 "YES"
VIDEO_LUT_CALIBRATION_POSSIBLE "YES"
OBSERVER "1931_2"
USE_BLACK_POINT_COMPENSATION "NO"
BLACK_POINT_CORRECTION "0.0"
HIRES_B2A "YES"
HIRES_B2A_SIZE "-1"
SMOOTH_B2A "YES"
PATCH_SEQUENCE "OPTIMIZE_DISPLAY_RESPONSE_DELAY"

NUMBER_OF_FIELDS 7
BEGIN_DATA_FORMAT
SAMPLE_ID RGB_R RGB_G RGB_B XYZ_X XYZ_Y XYZ_Z
END_DATA_FORMAT

NUMBER_OF_SETS 115
BEGIN_DATA
1 100.00000 100.00000 100.00000 95.124600 100.00000 108.89900
2 100.00000 66.667000 100.00000 83.461400 59.317400 105.22100
3 100.00000 100.00000 100.00000 95.162200 100.01400 108.89900
4 100.00000 100.00000 100.00000 95.124600 100.00000 108.89900
5 0.0000000 0.0000000 0.0000000 0.0863076 0.0930898 0.1464350
6 33.333000 0.0000000 0.0000000 5.1659800 2.3209900 0.1989610
7 66.667000 0.0000000 0.0000000 22.510900 9.9269200 0.3790140
8 100.00000 0.0000000 0.0000000 57.240900 25.157000 0.7549490
9 100.00000 0.0000000 33.333000 58.852200 25.767300 10.112700
10 100.00000 33.333000 33.333000 60.574200 31.869900 10.619700
11 100.00000 66.667000 33.333000 66.521400 52.572500 12.415000
12 100.00000 66.667000 66.667000 72.315500 54.899900 43.826000
13 66.667000 0.0000000 100.00000 40.946600 16.835300 102.56300
14 100.00000 0.0000000 100.00000 75.501100 31.998300 103.02200
15 1.9608000 1.9608000 1.9608000 0.1629840 0.1734960 0.2336880
16 3.9216000 3.9216000 3.9216000 0.3223040 0.3413230 0.4156200
17 5.8824000 5.8824000 5.8824000 0.5119340 0.5432770 0.6258780
18 7.8431000 7.8431000 7.8431000 0.7414520 0.7837040 0.8820740
19 9.8039000 9.8039000 9.8039000 1.0132900 1.0643300 1.1782500
20 11.765000 11.765000 11.765000 1.3181400 1.3938000 1.5437000
21 13.726000 13.726000 13.726000 1.6732300 1.7622700 1.9504300
22 15.686000 15.686000 15.686000 2.0742100 2.1932400 2.4323500
23 17.647000 17.647000 17.647000 2.5490400 2.6925400 2.9625600
24 19.608000 19.608000 19.608000 3.0674300 3.2335500 3.5669700
25 21.569000 21.569000 21.569000 3.6405500 3.8414100 4.2146500
26 23.529000 23.529000 23.529000 4.2875300 4.5144000 4.9501300
27 25.490000 25.490000 25.490000 5.0032900 5.2759600 5.7643900
28 27.451000 27.451000 27.451000 5.8053900 6.1179700 6.6931500
29 29.412000 29.412000 29.412000 6.6787800 7.0432700 7.6725100
30 31.373000 31.373000 31.373000 7.6144500 8.0208700 8.7452300
31 33.333000 33.333000 33.333000 8.6424000 9.1048600 9.8699800
32 35.294000 35.294000 35.294000 9.7235900 10.250800 11.108700
33 37.255000 37.255000 37.255000 10.886700 11.472600 12.419100
34 39.216000 39.216000 39.216000 12.042100 12.711300 13.802100
35 41.176000 41.176000 41.176000 13.378200 14.085100 15.298900
36 43.137000 43.137000 43.137000 14.757700 15.520600 16.863200
37 45.098000 45.098000 45.098000 16.191200 17.048300 18.476900
38 47.059000 47.059000 47.059000 17.678600 18.590600 20.166900
39 49.020000 49.020000 49.020000 19.301300 20.253700 21.933900
40 50.980000 50.980000 50.980000 21.006100 22.087300 23.855000
41 52.941000 52.941000 52.941000 22.772400 23.983000 25.929400
42 54.902000 54.902000 54.902000 24.675700 25.969400 28.156900
43 56.863000 56.863000 56.863000 26.638900 28.048100 30.461500
44 58.824000 58.824000 58.824000 28.776700 30.231500 32.919300
45 60.784000 60.784000 60.784000 30.843600 32.494400 35.301600
46 62.745000 62.745000 62.745000 33.109700 34.815400 37.913000
47 64.706000 64.706000 64.706000 35.275800 37.154700 40.448500
48 66.667000 66.667000 66.667000 37.818500 39.795000 43.214600
49 68.627000 68.627000 68.627000 40.452600 42.623100 46.287800
50 70.588000 70.588000 70.588000 43.139900 45.401400 49.284000
51 72.549000 72.549000 72.549000 45.781000 48.212600 52.280600
52 74.510000 74.510000 74.510000 48.582100 51.097900 55.430100
53 76.471000 76.471000 76.471000 51.426900 54.075100 58.580300
54 78.431000 78.431000 78.431000 54.394800 57.176600 62.037000
55 80.392000 80.392000 80.392000 57.543300 60.460600 65.647500
56 82.353000 82.353000 82.353000 60.728700 63.853500 69.335300
57 84.314000 84.314000 84.314000 64.127000 67.429700 73.329700
58 86.275000 86.275000 86.275000 67.554500 71.067100 77.324600
59 88.235000 88.235000 88.235000 71.208900 74.854100 81.472800
60 90.196000 90.196000 90.196000 74.855400 78.752700 85.774900
61 92.157000 92.157000 92.157000 78.699700 82.739500 90.230000
62 94.118000 94.118000 94.118000 82.519200 86.773000 94.609200
63 96.078000 96.078000 96.078000 86.616900 91.095400 99.219200
64 98.039000 98.039000 98.039000 90.747000 95.418700 103.98200
65 33.333000 33.333000 0.0000000 6.9638800 8.3691800 0.7131390
66 66.667000 33.333000 0.0000000 24.355300 15.984700 0.8932150
67 100.00000 33.333000 0.0000000 58.877000 31.116600 1.2660000
68 100.00000 66.667000 0.0000000 64.782400 51.680100 3.0288800
69 66.667000 66.667000 0.0000000 30.388800 36.621400 2.6587500
70 33.333000 66.667000 0.0000000 12.922100 28.977500 2.4789400
71 33.333000 100.00000 0.0000000 24.663200 69.951400 6.0184100
72 66.667000 100.00000 0.0000000 42.242400 77.762700 6.2085700
73 100.00000 100.00000 0.0000000 76.530600 92.731700 6.5739800
74 100.00000 100.00000 33.333000 78.265800 93.499200 15.929500
75 100.00000 100.00000 66.667000 83.945300 95.676200 47.428900
76 0.0000000 33.333000 0.0000000 1.8127100 6.1068100 0.6609900
77 0.0000000 33.333000 33.333000 3.4714100 6.8471700 9.6532900
78 33.333000 66.667000 66.667000 20.294300 32.119200 42.832500
79 0.0000000 66.667000 0.0000000 7.6880600 26.709100 2.4271000
80 0.0000000 66.667000 33.333000 9.3946700 27.596600 11.374400
81 33.333000 66.667000 33.333000 14.636600 29.852100 11.640700
82 66.667000 66.667000 33.333000 32.059100 37.498800 11.898800
83 0.0000000 100.00000 0.0000000 19.443500 67.838400 5.9786700
84 0.0000000 100.00000 33.333000 21.104600 68.556500 14.944600
85 33.333000 100.00000 33.333000 26.377700 70.778700 15.139600
86 66.667000 100.00000 33.333000 43.894300 78.484500 15.417600
87 66.667000 100.00000 66.667000 49.649600 80.703000 46.741500
88 66.667000 0.0000000 33.333000 24.133500 10.545200 9.5780700
89 66.667000 0.0000000 66.667000 29.793900 12.702500 40.865500
90 100.00000 0.0000000 66.667000 64.499200 27.917300 41.553400
91 100.00000 33.333000 66.667000 66.293300 34.091400 42.059800
92 66.667000 33.333000 33.333000 26.114000 16.748900 10.072800
93 66.667000 33.333000 66.667000 31.765500 18.955300 41.371800
94 0.0000000 0.0000000 33.333000 1.7162600 0.7143690 9.1362100
95 0.0000000 33.333000 66.667000 9.1272100 9.0498900 40.684000
96 33.333000 33.333000 66.667000 14.326000 11.325300 41.142700
97 0.0000000 66.667000 66.667000 15.049300 29.876700 42.374200
98 0.0000000 100.00000 66.667000 26.764900 70.866900 45.902300
99 33.333000 100.00000 66.667000 32.093700 73.090700 46.360000
100 33.333000 0.0000000 33.333000 6.8074500 2.9463700 9.3156700
101 33.333000 0.0000000 66.667000 12.451800 5.1015200 40.483300
102 33.333000 0.0000000 100.00000 23.674100 9.2624400 102.41100
103 0.0000000 0.0000000 66.667000 7.3592000 2.8666600 40.253900
104 0.0000000 0.0000000 100.00000 18.613000 7.0414000 102.25800
105 0.0000000 33.333000 100.00000 20.445600 13.394800 102.91800
106 33.333000 33.333000 100.00000 25.588000 15.621300 103.07100
107 66.667000 33.333000 100.00000 42.978800 23.249900 103.07100
108 100.00000 33.333000 100.00000 77.405700 38.339700 103.52900
109 0.0000000 66.667000 100.00000 26.446500 34.452400 104.61000
110 33.333000 66.667000 100.00000 31.626600 36.693100 104.76300
111 66.667000 66.667000 100.00000 49.090800 44.276500 105.06800
112 66.667000 100.00000 100.00000 60.922800 85.089900 108.51800
113 0.0000000 100.00000 100.00000 38.090100 75.194900 108.06000
114 33.333000 100.00000 100.00000 43.307800 77.449700 108.21300
115 100.00000 100.00000 100.00000 95.229000 100.09000 108.89900
END_DATA
